Word,Color,Stimulus_Condition,Correct_Response,thisN,thisTrialN,thisRepN,key_resp.keys,key_resp.corr,key_resp.rt,key_resp.duration,trials.thisRepN,trials.thisTrialN,trials.thisN,trials.thisIndex,thisRow.t,notes,Instruction.started,text_2.started,Instruction.stopped,trial.started,fixation.started,fixation.stopped,text.started,key_resp.started,trial.stopped,trials.key_resp.keys,trials.key_resp.corr,trials.key_resp.rt,trials.key_resp.duration,Thankyou.started,text_3.started,text_3.stopped,Thankyou.stopped,participant,session,date,expName,expVersion,psychopyVersion,frameRate,expStart,
,,,,,,,,,,,,,,,,,0.00879350000013801,0.021759100000053877,1.0050640999997995,,,,,,,,,,,,,,,subject3,"001",2025-08-25_17h37.42.100,StroopTask,,2025.2.0,71.53628463406174,2025-08-25 17h37.42.232945 +0530,
RED,blue,I,b,0,0,0,b,1,1.7585847999998805,None,0,0,0,1,1.0240014999999403,,,,,1.0132969999995112,1.0240014999999403,1.4933836999998675,1.4933836999998675,1.4933836999998675,3.2650492000002487,b,1,1.7585847999998805,None,,,,,subject3,"001",2025-08-25_17h37.42.100,StroopTask,,2025.2.0,71.53628463406174,2025-08-25 17h37.42.232945 +0530,
BLUE,red,I,r,1,1,0,r,1,0.5238531000004514,None,0,1,1,2,3.2780172000002494,,,,,3.2688993000001574,3.2780172000002494,3.758120699999381,3.758120699999381,3.758120699999381,4.284970300000168,r,1,0.5238531000004514,None,,,,,subject3,"001",2025-08-25_17h37.42.100,StroopTask,,2025.2.0,71.53628463406174,2025-08-25 17h37.42.232945 +0530,
RED,red,C,r,2,2,0,r,1,0.5079192000002877,None,0,2,2,0,4.292616400000043,,,,,4.287318799999412,4.292616400000043,4.778698799999802,4.778698799999802,4.778698799999802,5.291250799999943,r,1,0.5079192000002877,None,,,,,subject3,"001",2025-08-25_17h37.42.100,StroopTask,,2025.2.0,71.53628463406174,2025-08-25 17h37.42.232945 +0530,
BLUE,blue,C,b,3,3,0,b,1,0.3689487999999983,None,0,3,3,3,5.300122399999964,,,,,5.29312630000004,5.300122399999964,5.7801002999995035,5.7801002999995035,5.7801002999995035,6.155907999999727,b,1,0.3689487999999983,None,,,,,subject3,"001",2025-08-25_17h37.42.100,StroopTask,,2025.2.0,71.53628463406174,2025-08-25 17h37.42.232945 +0530,
RED,blue,I,b,4,0,1,b,1,1.3845143999997163,None,1,0,4,1,6.165746599999693,,,,,6.158112600000095,6.165746599999693,6.650330599999506,6.650330599999506,6.650330599999506,8.03672540000025,b,1,1.3845143999997163,None,,,,,subject3,"001",2025-08-25_17h37.42.100,StroopTask,,2025.2.0,71.53628463406174,2025-08-25 17h37.42.232945 +0530,
BLUE,red,I,r,5,1,1,r,1,0.37207539999963046,None,1,1,5,2,8.043607399999928,,,,,8.038236700000198,8.043607399999928,8.533322299999782,8.533322299999782,8.533322299999782,8.907305699999597,r,1,0.37207539999963046,None,,,,,subject3,"001",2025-08-25_17h37.42.100,StroopTask,,2025.2.0,71.53628463406174,2025-08-25 17h37.42.232945 +0530,
BLUE,blue,C,b,6,2,1,b,1,0.5421778999998423,None,1,2,6,3,8.913110299999971,,,,,8.908099600000241,8.913110299999971,9.398818699999538,9.398818699999538,9.398818699999538,9.947818599999664,b,1,0.5421778999998423,None,,,,,subject3,"001",2025-08-25_17h37.42.100,StroopTask,,2025.2.0,71.53628463406174,2025-08-25 17h37.42.232945 +0530,
RED,red,C,r,7,3,1,r,1,0.3466707999996288,None,1,3,7,0,9.957665799999631,,,,,9.950386699999399,9.957665799999631,10.440483700000186,10.440483700000186,10.440483700000186,10.793266799999401,r,1,0.3466707999996288,None,,,,,subject3,"001",2025-08-25_17h37.42.100,StroopTask,,2025.2.0,71.53628463406174,2025-08-25 17h37.42.232945 +0530,
BLUE,blue,C,b,8,0,2,b,1,0.768639500000063,None,2,0,8,3,10.80198829999972,,,,,10.795322699999815,10.80198829999972,11.287971199999447,11.287971199999447,11.287971199999447,12.058977799999411,b,1,0.768639500000063,None,,,,,subject3,"001",2025-08-25_17h37.42.100,StroopTask,,2025.2.0,71.53628463406174,2025-08-25 17h37.42.232945 +0530,
BLUE,red,I,r,9,1,2,r,1,0.9012618000006114,None,2,1,9,2,12.065682899999956,,,,,12.059356599999774,12.065682899999956,12.553807499999493,12.553807499999493,12.553807499999493,13.459833899999467,r,1,0.9012618000006114,None,,,,,subject3,"001",2025-08-25_17h37.42.100,StroopTask,,2025.2.0,71.53628463406174,2025-08-25 17h37.42.232945 +0530,
RED,blue,I,b,10,2,2,b,1,0.9857545999993818,None,2,2,10,1,13.466125899999497,,,,,13.461808299999575,13.466125899999497,13.95069169999988,13.95069169999988,13.95069169999988,14.94376099999954,b,1,0.9857545999993818,None,,,,,subject3,"001",2025-08-25_17h37.42.100,StroopTask,,2025.2.0,71.53628463406174,2025-08-25 17h37.42.232945 +0530,
RED,red,C,r,11,3,2,r,1,0.4534035999995467,None,2,3,11,0,14.95127169999978,,,,,14.944242499999746,14.95127169999978,15.43738200000007,15.43738200000007,15.43738200000007,15.894567499999539,r,1,0.4534035999995467,None,,,,,subject3,"001",2025-08-25_17h37.42.100,StroopTask,,2025.2.0,71.53628463406174,2025-08-25 17h37.42.232945 +0530,
BLUE,red,I,r,12,0,3,r,1,0.4156262999995306,None,3,0,12,2,15.900764299999537,,,,,15.896549099999902,15.900764299999537,16.39317680000022,16.39317680000022,16.39317680000022,16.81446489999962,r,1,0.4156262999995306,None,,,,,subject3,"001",2025-08-25_17h37.42.100,StroopTask,,2025.2.0,71.53628463406174,2025-08-25 17h37.42.232945 +0530,
RED,red,C,r,13,1,3,r,1,0.3550381000004563,None,3,1,13,0,16.823250299999927,,,,,16.816667699999925,16.823250299999927,17.30584649999946,17.30584649999946,17.30584649999946,17.661408299999493,r,1,0.3550381000004563,None,,,,,subject3,"001",2025-08-25_17h37.42.100,StroopTask,,2025.2.0,71.53628463406174,2025-08-25 17h37.42.232945 +0530,
BLUE,blue,C,b,14,2,3,b,1,0.30556739999974525,None,3,2,14,3,17.67003299999942,,,,,17.663343799999893,17.67003299999942,18.153183499999614,18.153183499999614,18.153183499999614,18.46587459999955,b,1,0.30556739999974525,None,,,,,subject3,"001",2025-08-25_17h37.42.100,StroopTask,,2025.2.0,71.53628463406174,2025-08-25 17h37.42.232945 +0530,
RED,blue,I,b,15,3,3,b,1,0.2986070999995718,None,3,3,15,1,18.47287529999994,,,,,18.467660299999807,18.47287529999994,18.959681000000273,18.959681000000273,18.959681000000273,19.265749199999846,b,1,0.2986070999995718,None,,,,,subject3,"001",2025-08-25_17h37.42.100,StroopTask,,2025.2.0,71.53628463406174,2025-08-25 17h37.42.232945 +0530,
BLUE,red,I,r,16,0,4,r,1,0.46997970000029454,None,4,0,16,2,19.272098399999777,,,,,19.267857299999378,19.272098399999777,19.759361499999613,19.759361499999613,19.759361499999613,20.2315966999995,r,1,0.46997970000029454,None,,,,,subject3,"001",2025-08-25_17h37.42.100,StroopTask,,2025.2.0,71.53628463406174,2025-08-25 17h37.42.232945 +0530,
BLUE,blue,C,b,17,1,4,b,1,0.4965700000002471,None,4,1,17,3,20.240040699999554,,,,,20.232182900000225,20.240040699999554,20.724255099999937,20.724255099999937,20.724255099999937,21.22166019999986,b,1,0.4965700000002471,None,,,,,subject3,"001",2025-08-25_17h37.42.100,StroopTask,,2025.2.0,71.53628463406174,2025-08-25 17h37.42.232945 +0530,
RED,blue,I,b,18,2,4,b,1,0.3844711000001553,None,4,2,18,1,21.227645500000108,,,,,21.223309799999697,21.227645500000108,21.716061799999807,21.716061799999807,21.716061799999807,22.106381900000088,b,1,0.3844711000001553,None,,,,,subject3,"001",2025-08-25_17h37.42.100,StroopTask,,2025.2.0,71.53628463406174,2025-08-25 17h37.42.232945 +0530,
RED,red,C,r,19,3,4,r,1,0.36436419999972713,None,4,3,19,0,22.114379499999814,,,,,22.107292199999392,22.114379499999814,22.60002439999971,22.60002439999971,22.60002439999971,22.964991799999552,r,1,0.36436419999972713,None,,,,,subject3,"001",2025-08-25_17h37.42.100,StroopTask,,2025.2.0,71.53628463406174,2025-08-25 17h37.42.232945 +0530,
BLUE,blue,C,b,20,0,5,b,1,0.35723589999997785,None,5,0,20,3,22.97283619999962,,,,,22.968198099999427,22.97283619999962,23.459464200000184,23.459464200000184,23.459464200000184,23.82204720000027,b,1,0.35723589999997785,None,,,,,subject3,"001",2025-08-25_17h37.42.100,StroopTask,,2025.2.0,71.53628463406174,2025-08-25 17h37.42.232945 +0530,
BLUE,red,I,r,21,1,5,r,1,0.28698759999952017,None,5,1,21,2,23.828610099999423,,,,,23.82243339999968,23.828610099999423,24.316124400000263,24.316124400000263,24.316124400000263,24.6059494000001,r,1,0.28698759999952017,None,,,,,subject3,"001",2025-08-25_17h37.42.100,StroopTask,,2025.2.0,71.53628463406174,2025-08-25 17h37.42.232945 +0530,
RED,blue,I,b,22,2,5,b,1,0.3248892000001433,None,5,2,22,1,24.61220349999985,,,,,24.607762699999512,24.61220349999985,25.097458999999617,25.097458999999617,25.097458999999617,25.427320799999507,b,1,0.3248892000001433,None,,,,,subject3,"001",2025-08-25_17h37.42.100,StroopTask,,2025.2.0,71.53628463406174,2025-08-25 17h37.42.232945 +0530,
RED,red,C,r,23,3,5,r,1,0.47688709999965795,None,5,3,23,0,25.433454199999687,,,,,25.427904399999534,25.433454199999687,25.91904389999945,25.91904389999945,25.91904389999945,26.400267099999837,r,1,0.47688709999965795,None,,,,,subject3,"001",2025-08-25_17h37.42.100,StroopTask,,2025.2.0,71.53628463406174,2025-08-25 17h37.42.232945 +0530,
BLUE,blue,C,b,24,0,6,b,1,0.35076180000032764,None,6,0,24,3,26.406937499999913,,,,,26.40250670000023,26.406937499999913,26.892467300000135,26.892467300000135,26.892467300000135,27.25126089999958,b,1,0.35076180000032764,None,,,,,subject3,"001",2025-08-25_17h37.42.100,StroopTask,,2025.2.0,71.53628463406174,2025-08-25 17h37.42.232945 +0530,
RED,red,C,r,25,1,6,r,1,0.4776391000004878,None,6,1,25,0,27.260718599999564,,,,,27.253764399999454,27.260718599999564,27.743458799999644,27.743458799999644,27.743458799999644,28.22651649999989,r,1,0.4776391000004878,None,,,,,subject3,"001",2025-08-25_17h37.42.100,StroopTask,,2025.2.0,71.53628463406174,2025-08-25 17h37.42.232945 +0530,
BLUE,red,I,r,26,2,6,r,1,0.30590940000001865,None,6,2,26,2,28.23355199999969,,,,,28.2290567,28.23355199999969,28.71851079999942,28.71851079999942,28.71851079999942,29.025033099999746,r,1,0.30590940000001865,None,,,,,subject3,"001",2025-08-25_17h37.42.100,StroopTask,,2025.2.0,71.53628463406174,2025-08-25 17h37.42.232945 +0530,
RED,blue,I,b,27,3,6,b,1,0.34054199999991397,None,6,3,27,1,29.03125639999962,,,,,29.02661569999964,29.03125639999962,29.51994790000026,29.51994790000026,29.51994790000026,29.8646420999994,b,1,0.34054199999991397,None,,,,,subject3,"001",2025-08-25_17h37.42.100,StroopTask,,2025.2.0,71.53628463406174,2025-08-25 17h37.42.232945 +0530,
RED,blue,I,b,28,0,7,b,1,0.27579989999958343,None,7,0,28,1,29.871007900000222,,,,,29.86501009999938,29.871007900000222,30.355902799999967,30.355902799999967,30.355902799999967,30.639655500000117,b,1,0.27579989999958343,None,,,,,subject3,"001",2025-08-25_17h37.42.100,StroopTask,,2025.2.0,71.53628463406174,2025-08-25 17h37.42.232945 +0530,
BLUE,blue,C,b,29,1,7,b,1,0.3685198000002856,None,7,1,29,3,30.648580999999467,,,,,30.64206049999939,30.648580999999467,31.13486659999944,31.13486659999944,31.13486659999944,31.509503000000223,b,1,0.3685198000002856,None,,,,,subject3,"001",2025-08-25_17h37.42.100,StroopTask,,2025.2.0,71.53628463406174,2025-08-25 17h37.42.232945 +0530,
BLUE,red,I,r,30,2,7,r,1,0.34897860000000946,None,7,2,30,2,31.516188099999454,,,,,31.51028200000019,31.516188099999454,32.00538919999963,32.00538919999963,32.00538919999963,32.3553839999995,r,1,0.34897860000000946,None,,,,,subject3,"001",2025-08-25_17h37.42.100,StroopTask,,2025.2.0,71.53628463406174,2025-08-25 17h37.42.232945 +0530,
RED,red,C,r,31,3,7,r,1,0.3860890999994808,None,7,3,31,0,32.36219699999947,,,,,32.35747470000024,32.36219699999947,32.847290599999724,32.847290599999724,32.847290599999724,33.23401829999966,r,1,0.3860890999994808,None,,,,,subject3,"001",2025-08-25_17h37.42.100,StroopTask,,2025.2.0,71.53628463406174,2025-08-25 17h37.42.232945 +0530,
BLUE,blue,C,b,32,0,8,b,1,0.2578342999995584,None,8,0,32,3,33.2400061999997,,,,,33.23561100000006,33.2400061999997,33.7244983999999,33.7244983999999,33.7244983999999,33.986222699999416,b,1,0.2578342999995584,None,,,,,subject3,"001",2025-08-25_17h37.42.100,StroopTask,,2025.2.0,71.53628463406174,2025-08-25 17h37.42.232945 +0530,
BLUE,red,I,r,33,1,8,r,1,0.2889281000007031,None,8,1,33,2,33.99414739999975,,,,,33.98672780000015,33.99414739999975,34.47868109999945,34.47868109999945,34.47868109999945,34.77158259999942,r,1,0.2889281000007031,None,,,,,subject3,"001",2025-08-25_17h37.42.100,StroopTask,,2025.2.0,71.53628463406174,2025-08-25 17h37.42.232945 +0530,
RED,blue,I,b,34,2,8,b,1,0.899549400000069,None,8,2,34,1,34.77770869999949,,,,,34.77307099999962,34.77770869999949,35.2635750999998,35.2635750999998,35.2635750999998,36.166523199999574,b,1,0.899549400000069,None,,,,,subject3,"001",2025-08-25_17h37.42.100,StroopTask,,2025.2.0,71.53628463406174,2025-08-25 17h37.42.232945 +0530,
RED,red,C,r,35,3,8,r,1,0.3083378999999695,None,8,3,35,0,36.174473000000035,,,,,36.167282700000214,36.174473000000035,36.65749169999981,36.65749169999981,36.65749169999981,36.97378099999969,r,1,0.3083378999999695,None,,,,,subject3,"001",2025-08-25_17h37.42.100,StroopTask,,2025.2.0,71.53628463406174,2025-08-25 17h37.42.232945 +0530,
RED,red,C,r,36,0,9,r,1,0.5005369999998948,None,9,0,36,0,36.98135249999996,,,,,36.97446690000015,36.98135249999996,37.46759909999946,37.46759909999946,37.46759909999946,37.97313479999957,r,1,0.5005369999998948,None,,,,,subject3,"001",2025-08-25_17h37.42.100,StroopTask,,2025.2.0,71.53628463406174,2025-08-25 17h37.42.232945 +0530,
BLUE,blue,C,b,37,1,9,b,1,0.26917500000035943,None,9,1,37,3,37.97924409999996,,,,,37.974978100000044,37.97924409999996,38.46471250000013,38.46471250000013,38.46471250000013,38.73584250000022,b,1,0.26917500000035943,None,,,,,subject3,"001",2025-08-25_17h37.42.100,StroopTask,,2025.2.0,71.53628463406174,2025-08-25 17h37.42.232945 +0530,
RED,blue,I,b,38,2,9,b,1,0.39748640000016167,None,9,2,38,1,38.74248540000008,,,,,38.73785129999942,38.74248540000008,39.2294753999995,39.2294753999995,39.2294753999995,39.63113879999946,b,1,0.39748640000016167,None,,,,,subject3,"001",2025-08-25_17h37.42.100,StroopTask,,2025.2.0,71.53628463406174,2025-08-25 17h37.42.232945 +0530,
BLUE,red,I,r,39,3,9,r,1,0.34997480000038195,None,9,3,39,2,39.64105959999961,,,,,39.63414329999978,39.64105959999961,40.12008109999988,40.12008109999988,40.12008109999988,40.47737119999965,r,1,0.34997480000038195,None,,,,,subject3,"001",2025-08-25_17h37.42.100,StroopTask,,2025.2.0,71.53628463406174,2025-08-25 17h37.42.232945 +0530,
,,,,,,,,,,,,,,,,,,,,,,,,,,,,,,40.47754840000016,40.483614699999634,41.47449570000026,41.46787080000013,subject3,"001",2025-08-25_17h37.42.100,StroopTask,,2025.2.0,71.53628463406174,2025-08-25 17h37.42.232945 +0530,
