Word,Color,Stimulus_Condition,Correct_Response,thisN,thisTrialN,thisRepN,key_resp.keys,key_resp.corr,key_resp.rt,key_resp.duration,trials.thisRepN,trials.thisTrialN,trials.thisN,trials.thisIndex,thisRow.t,notes,Instruction.started,text_2.started,Instruction.stopped,trial.started,fixation.started,fixation.stopped,text.started,key_resp.started,trial.stopped,trials.key_resp.keys,trials.key_resp.corr,trials.key_resp.rt,trials.key_resp.duration,Thankyou.started,text_3.started,text_3.stopped,Thankyou.stopped,participant,session,date,expName,expVersion,psychopyVersion,frameRate,expStart,
,,,,,,,,,,,,,,,,,0.020849100008490495,0.03620470000896603,1.0044575000065379,,,,,,,,,,,,,,,subject 1,"001",2025-08-22_16h12.04.378,StroopTask,,2025.2.0,59.98670694577983,2025-08-22 16h12.04.731795 +0530,
BLUE,blue,C,b,0,0,0,b,1,1.8033512999973027,None,0,0,0,3,1.0410321000090335,,,,,1.0227375000104075,1.0410321000090335,1.5076864000002388,1.5076864000002388,1.5076864000002388,3.44309329999669,b,1,1.8033512999973027,None,,,,,subject 1,"001",2025-08-22_16h12.04.378,StroopTask,,2025.2.0,59.98670694577983,2025-08-22 16h12.04.731795 +0530,
BLUE,red,I,r,1,1,0,r,1,0.7408361999987392,None,0,1,1,2,3.4661975000053644,,,,,3.443561599997338,3.4661975000053644,3.9490021000092383,3.9490021000092383,3.9490021000092383,4.699409399996512,r,1,0.7408361999987392,None,,,,,subject 1,"001",2025-08-22_16h12.04.378,StroopTask,,2025.2.0,59.98670694577983,2025-08-22 16h12.04.731795 +0530,
RED,blue,I,b,2,2,0,b,1,0.8122316999942996,None,0,2,2,1,4.715288200008217,,,,,4.705651399999624,4.715288200008217,5.1990213000099175,5.1990213000099175,5.1990213000099175,6.016005299999961,b,1,0.8122316999942996,None,,,,,subject 1,"001",2025-08-22_16h12.04.378,StroopTask,,2025.2.0,59.98670694577983,2025-08-22 16h12.04.731795 +0530,
RED,red,C,r,3,3,0,r,1,0.5339525000017602,None,0,3,3,0,6.032389700005297,,,,,6.016675000006217,6.032389700005297,6.5159969000087585,6.5159969000087585,6.5159969000087585,7.065966000009212,r,1,0.5339525000017602,None,,,,,subject 1,"001",2025-08-22_16h12.04.378,StroopTask,,2025.2.0,59.98670694577983,2025-08-22 16h12.04.731795 +0530,
BLUE,red,I,r,4,0,1,r,1,0.9719411999976728,None,1,0,4,2,7.0821540000033565,,,,,7.068489700002829,7.0821540000033565,7.565901000009035,7.565901000009035,7.565901000009035,8.552490600006422,r,1,0.9719411999976728,None,,,,,subject 1,"001",2025-08-22_16h12.04.378,StroopTask,,2025.2.0,59.98670694577983,2025-08-22 16h12.04.731795 +0530,
RED,red,C,r,5,1,1,r,1,0.48096580000128597,None,1,1,5,0,8.568768600001931,,,,,8.555000899999868,8.568768600001931,9.052627199998824,9.052627199998824,9.052627199998824,9.536275899998145,r,1,0.48096580000128597,None,,,,,subject 1,"001",2025-08-22_16h12.04.378,StroopTask,,2025.2.0,59.98670694577983,2025-08-22 16h12.04.731795 +0530,
BLUE,blue,C,b,6,2,1,b,1,0.4713220999983605,None,1,2,6,3,9.552502400008962,,,,,9.538713000001735,9.552502400008962,10.052639600005932,10.052639600005932,10.052639600005932,10.53631480000331,b,1,0.4713220999983605,None,,,,,subject 1,"001",2025-08-22_16h12.04.378,StroopTask,,2025.2.0,59.98670694577983,2025-08-22 16h12.04.731795 +0530,
RED,blue,I,b,7,3,1,b,1,0.36240889999317005,None,1,3,7,1,10.552803900005529,,,,,10.538249000004726,10.552803900005529,11.052594100008719,11.052594100008719,11.052594100008719,11.41897159999644,b,1,0.36240889999317005,None,,,,,subject 1,"001",2025-08-22_16h12.04.378,StroopTask,,2025.2.0,59.98670694577983,2025-08-22 16h12.04.731795 +0530,
BLUE,red,I,r,8,0,2,r,1,0.3854412000073353,None,2,0,8,2,11.435139599998365,,,,,11.421177199998056,11.435139599998365,11.919213700006367,11.919213700006367,11.919213700006367,12.319669999997132,r,1,0.3854412000073353,None,,,,,subject 1,"001",2025-08-22_16h12.04.378,StroopTask,,2025.2.0,59.98670694577983,2025-08-22 16h12.04.731795 +0530,
RED,blue,I,b,9,1,2,r,0,0.5446571999927983,None,2,1,9,1,12.335201900001266,,,,,12.32196549999935,12.335201900001266,12.818533199999365,12.818533199999365,12.818533199999365,13.369031000009272,r,0,0.5446571999927983,None,,,,,subject 1,"001",2025-08-22_16h12.04.378,StroopTask,,2025.2.0,59.98670694577983,2025-08-22 16h12.04.731795 +0530,
RED,red,C,r,10,2,2,r,1,0.9054977000050712,None,2,2,10,0,13.385089000003063,,,,,13.369939099997282,13.385089000003063,13.8688026000018,13.8688026000018,13.8688026000018,14.785950300007244,r,1,0.9054977000050712,None,,,,,subject 1,"001",2025-08-22_16h12.04.378,StroopTask,,2025.2.0,59.98670694577983,2025-08-22 16h12.04.731795 +0530,
BLUE,blue,C,b,11,3,2,b,1,0.43860579999454785,None,2,3,11,3,14.801773300001514,,,,,14.788711600005627,14.801773300001514,15.285449200004223,15.285449200004223,15.285449200004223,15.735570600008941,b,1,0.43860579999454785,None,,,,,subject 1,"001",2025-08-22_16h12.04.378,StroopTask,,2025.2.0,59.98670694577983,2025-08-22 16h12.04.731795 +0530,
RED,blue,I,b,12,0,3,b,1,0.4950179000006756,None,3,0,12,1,15.752064700005576,,,,,15.737812899998971,15.752064700005576,16.235303900000872,16.235303900000872,16.235303900000872,16.736094799998682,b,1,0.4950179000006756,None,,,,,subject 1,"001",2025-08-22_16h12.04.378,StroopTask,,2025.2.0,59.98670694577983,2025-08-22 16h12.04.731795 +0530,
RED,red,C,r,13,1,3,r,1,0.563117500001681,None,3,1,13,0,16.752314500001376,,,,,16.736865700004273,16.752314500001376,17.251811100009945,17.251811100009945,17.251811100009945,17.818596900004195,r,1,0.563117500001681,None,,,,,subject 1,"001",2025-08-22_16h12.04.378,StroopTask,,2025.2.0,59.98670694577983,2025-08-22 16h12.04.731795 +0530,
BLUE,blue,C,b,14,2,3,b,1,0.5811326000111876,None,3,2,14,3,17.834824600009597,,,,,17.820515600004,17.834824600009597,18.318842000007862,18.318842000007862,18.318842000007862,18.90209620000678,b,1,0.5811326000111876,None,,,,,subject 1,"001",2025-08-22_16h12.04.378,StroopTask,,2025.2.0,59.98670694577983,2025-08-22 16h12.04.731795 +0530,
BLUE,red,I,r,15,3,3,r,1,0.97261250000156,None,3,3,15,2,18.918341199998395,,,,,18.902621800007182,18.918341199998395,19.401352400003816,19.401352400003816,19.401352400003816,20.38506130001042,r,1,0.97261250000156,None,,,,,subject 1,"001",2025-08-22_16h12.04.378,StroopTask,,2025.2.0,59.98670694577983,2025-08-22 16h12.04.731795 +0530,
BLUE,red,I,r,16,0,4,r,1,0.4186840000038501,None,4,0,16,2,20.401533900003415,,,,,20.385880900008488,20.401533900003415,20.885020300003816,20.885020300003816,20.885020300003816,21.319139500003075,r,1,0.4186840000038501,None,,,,,subject 1,"001",2025-08-22_16h12.04.378,StroopTask,,2025.2.0,59.98670694577983,2025-08-22 16h12.04.731795 +0530,
BLUE,blue,C,b,17,1,4,b,1,0.6270853000023635,None,4,1,17,3,21.33550699999614,,,,,21.319773499999428,21.33550699999614,21.834380500004045,21.834380500004045,21.834380500004045,22.4688782000012,b,1,0.6270853000023635,None,,,,,subject 1,"001",2025-08-22_16h12.04.378,StroopTask,,2025.2.0,59.98670694577983,2025-08-22 16h12.04.731795 +0530,
RED,blue,I,b,18,2,4,b,1,0.42168329999549314,None,4,2,18,1,22.484679300003336,,,,,22.47147030000633,22.484679300003336,22.968221200004336,22.968221200004336,22.968221200004336,23.402435299998615,b,1,0.42168329999549314,None,,,,,subject 1,"001",2025-08-22_16h12.04.378,StroopTask,,2025.2.0,59.98670694577983,2025-08-22 16h12.04.731795 +0530,
RED,red,C,r,19,3,4,r,1,0.4610567999916384,None,4,3,19,0,23.417809500009753,,,,,23.403043600003002,23.417809500009753,23.901581400001305,23.901581400001305,23.901581400001305,24.368447400003788,r,1,0.4610567999916384,None,,,,,subject 1,"001",2025-08-22_16h12.04.378,StroopTask,,2025.2.0,59.98670694577983,2025-08-22 16h12.04.731795 +0530,
RED,red,C,r,20,0,5,r,1,0.4851035000028787,None,5,0,20,0,24.384372400003485,,,,,24.369200100001763,24.384372400003485,24.867926899998565,24.867926899998565,24.867926899998565,25.368318000008003,r,1,0.4851035000028787,None,,,,,subject 1,"001",2025-08-22_16h12.04.378,StroopTask,,2025.2.0,59.98670694577983,2025-08-22 16h12.04.731795 +0530,
RED,blue,I,b,21,1,5,b,1,0.3592981999972835,None,5,1,21,1,25.38476709999668,,,,,25.36918219999643,25.38476709999668,25.86813339999935,25.86813339999935,25.86813339999935,26.234745399997337,b,1,0.3592981999972835,None,,,,,subject 1,"001",2025-08-22_16h12.04.378,StroopTask,,2025.2.0,59.98670694577983,2025-08-22 16h12.04.731795 +0530,
BLUE,red,I,r,22,2,5,r,1,0.543687500001397,None,5,2,22,2,26.250808199998573,,,,,26.23744579999766,26.250808199998573,26.734970700010308,26.734970700010308,26.734970700010308,27.284518600004958,r,1,0.543687500001397,None,,,,,subject 1,"001",2025-08-22_16h12.04.378,StroopTask,,2025.2.0,59.98670694577983,2025-08-22 16h12.04.731795 +0530,
BLUE,blue,C,b,23,3,5,b,1,0.4183876000024611,None,5,3,23,3,27.300920299996505,,,,,27.284971800007042,27.300920299996505,27.784441299998434,27.784441299998434,27.784441299998434,28.218060300001525,b,1,0.4183876000024611,None,,,,,subject 1,"001",2025-08-22_16h12.04.378,StroopTask,,2025.2.0,59.98670694577983,2025-08-22 16h12.04.731795 +0530,
BLUE,blue,C,b,24,0,6,b,1,0.49296430000686087,None,6,0,24,3,28.23417560000962,,,,,28.218948200010345,28.23417560000962,28.718234300002223,28.718234300002223,28.718234300002223,29.21862020000117,b,1,0.49296430000686087,None,,,,,subject 1,"001",2025-08-22_16h12.04.378,StroopTask,,2025.2.0,59.98670694577983,2025-08-22 16h12.04.731795 +0530,
BLUE,red,I,r,25,1,6,r,1,0.35946249999688007,None,6,1,25,2,29.2347626999981,,,,,29.219220099999802,29.2347626999981,29.717539200006286,29.717539200006286,29.717539200006286,30.084548800004995,r,1,0.35946249999688007,None,,,,,subject 1,"001",2025-08-22_16h12.04.378,StroopTask,,2025.2.0,59.98670694577983,2025-08-22 16h12.04.731795 +0530,
RED,red,C,r,26,2,6,r,1,0.5360227000055602,None,6,2,26,0,30.10141420000582,,,,,30.08713830000488,30.10141420000582,30.58436390000861,30.58436390000861,30.58436390000861,31.13506139999663,r,1,0.5360227000055602,None,,,,,subject 1,"001",2025-08-22_16h12.04.378,StroopTask,,2025.2.0,59.98670694577983,2025-08-22 16h12.04.731795 +0530,
RED,blue,I,b,27,3,6,b,1,0.3990207999886479,None,6,3,27,1,31.151175899998634,,,,,31.135890400008066,31.151175899998634,31.634829200003878,31.634829200003878,31.634829200003878,32.03571650000231,b,1,0.3990207999886479,None,,,,,subject 1,"001",2025-08-22_16h12.04.378,StroopTask,,2025.2.0,59.98670694577983,2025-08-22 16h12.04.731795 +0530,
RED,red,C,r,28,0,7,r,1,0.4387672000011662,None,7,0,28,0,32.05117010000686,,,,,32.03639010000916,32.05117010000686,32.55127850000281,32.55127850000281,32.55127850000281,33.001081900001736,r,1,0.4387672000011662,None,,,,,subject 1,"001",2025-08-22_16h12.04.378,StroopTask,,2025.2.0,59.98670694577983,2025-08-22 16h12.04.731795 +0530,
BLUE,blue,C,b,29,1,7,b,1,0.2727228000003379,None,7,1,29,3,33.01707190000161,,,,,33.00282910000533,33.01707190000161,33.50070980000601,33.50070980000601,33.50070980000601,33.78433470000164,b,1,0.2727228000003379,None,,,,,subject 1,"001",2025-08-22_16h12.04.378,StroopTask,,2025.2.0,59.98670694577983,2025-08-22 16h12.04.731795 +0530,
BLUE,red,I,r,30,2,7,r,1,0.7093376999982866,None,7,2,30,2,33.80033110000659,,,,,33.785098799999105,33.80033110000659,34.28426539999782,34.28426539999782,34.28426539999782,35.00154550001025,r,1,0.7093376999982866,None,,,,,subject 1,"001",2025-08-22_16h12.04.378,StroopTask,,2025.2.0,59.98670694577983,2025-08-22 16h12.04.731795 +0530,
RED,blue,I,b,31,3,7,b,1,0.5009270000009565,None,7,3,31,1,35.017166400008136,,,,,35.00383790000342,35.017166400008136,35.517194500003825,35.517194500003825,35.517194500003825,36.03471659999923,b,1,0.5009270000009565,None,,,,,subject 1,"001",2025-08-22_16h12.04.378,StroopTask,,2025.2.0,59.98670694577983,2025-08-22 16h12.04.731795 +0530,
BLUE,blue,C,b,32,0,8,b,1,0.34062160000030417,None,8,0,32,3,36.05122599999595,,,,,36.03663950000191,36.05122599999595,36.550930600002175,36.550930600002175,36.550930600002175,36.90056480000203,b,1,0.34062160000030417,None,,,,,subject 1,"001",2025-08-22_16h12.04.378,StroopTask,,2025.2.0,59.98670694577983,2025-08-22 16h12.04.731795 +0530,
BLUE,red,I,r,33,1,8,r,1,0.30680750000465196,None,8,1,33,2,36.91745880000235,,,,,36.90104360000987,36.91745880000235,37.40075580000121,37.40075580000121,37.40075580000121,37.718144700003904,r,1,0.30680750000465196,None,,,,,subject 1,"001",2025-08-22_16h12.04.378,StroopTask,,2025.2.0,59.98670694577983,2025-08-22 16h12.04.731795 +0530,
RED,red,C,r,34,2,8,r,1,0.48436360000050627,None,8,2,34,0,37.73423170000024,,,,,37.72006049999618,37.73423170000024,38.216894400000456,38.216894400000456,38.216894400000456,38.71766570000909,r,1,0.48436360000050627,None,,,,,subject 1,"001",2025-08-22_16h12.04.378,StroopTask,,2025.2.0,59.98670694577983,2025-08-22 16h12.04.731795 +0530,
RED,blue,I,b,35,3,8,b,1,0.42345999999088235,None,8,3,35,1,38.7333964999998,,,,,38.71853110000666,38.7333964999998,39.21695640000689,39.21695640000689,39.21695640000689,39.650654800003394,b,1,0.42345999999088235,None,,,,,subject 1,"001",2025-08-22_16h12.04.378,StroopTask,,2025.2.0,59.98670694577983,2025-08-22 16h12.04.731795 +0530,
BLUE,blue,C,b,36,0,9,b,1,0.3437257000041427,None,9,0,36,3,39.666619299998274,,,,,39.653216500009876,39.666619299998274,40.15045260000625,40.15045260000625,40.15045260000625,40.50122069999634,b,1,0.3437257000041427,None,,,,,subject 1,"001",2025-08-22_16h12.04.378,StroopTask,,2025.2.0,59.98670694577983,2025-08-22 16h12.04.731795 +0530,
RED,red,C,r,37,1,9,r,1,0.5158189999929164,None,9,1,37,0,40.51681770000141,,,,,40.50358220000635,40.51681770000141,41.00076989999798,41.00076989999798,41.00076989999798,41.51749330000894,r,1,0.5158189999929164,None,,,,,subject 1,"001",2025-08-22_16h12.04.378,StroopTask,,2025.2.0,59.98670694577983,2025-08-22 16h12.04.731795 +0530,
RED,blue,I,b,38,2,9,b,1,0.5202329999883659,None,9,2,38,1,41.53552079999645,,,,,41.51827729999786,41.53552079999645,42.01704040000914,42.01704040000914,42.01704040000914,42.55103760000202,b,1,0.5202329999883659,None,,,,,subject 1,"001",2025-08-22_16h12.04.378,StroopTask,,2025.2.0,59.98670694577983,2025-08-22 16h12.04.731795 +0530,
BLUE,red,I,r,39,3,9,r,1,0.2985659999976633,None,9,3,39,2,42.56735110000591,,,,,42.553770300000906,42.56735110000591,43.0506361000007,43.0506361000007,43.0506361000007,43.35081760000321,r,1,0.2985659999976633,None,,,,,subject 1,"001",2025-08-22_16h12.04.378,StroopTask,,2025.2.0,59.98670694577983,2025-08-22 16h12.04.731795 +0530,
,,,,,,,,,,,,,,,,,,,,,,,,,,,,,,43.350949900006526,43.367276100005256,44.36747199999809,44.35035940000671,subject 1,"001",2025-08-22_16h12.04.378,StroopTask,,2025.2.0,59.98670694577983,2025-08-22 16h12.04.731795 +0530,
